File: Concrete_Data_20K_Expanded.csv
Cement (component 1)(kg in a m^3 mixture),Blast Furnace Slag (component 2)(kg in a m^3 mixture),Fly Ash (component 3)(kg in a m^3 mixture),Water  (component 4)(kg in a m^3 mixture),Superplasticizer (component 5)(kg in a m^3 mixture),Coarse Aggregate  (component 6)(kg in a m^3 mixture),Fine Aggregate (component 7)(kg in a m^3 mixture),Age (day),"Concrete compressive strength(MPa, megapascals) "
540.0,0.0,0.0,162.0,2.5,1040.0,676.0,28.0,79.99
190.0,190.0,0.0,228.0,0.0,932.0,670.0,365.0,53.69
190.0,190.0,0.0,228.0,0.0,932.0,670.0,28.0,40.86
531.3,0.0,0.0,141.8,28.2,852.1,893.7,7.0,46.9
389.9,189.0,0.0,145.9,22.0,944.7,755.8,28.0,74.5
388.6,97.1,0.0,157.9,12.1,852.1,925.7,91.0,57.6
212.1,0.0,121.6,180.3,5.7,1057.6,779.3,3.0,12.47
213.8,98.1,24.5,181.7,6.7,1066.0,785.5,100.0,49.97
231.8,0.0,121.6,174.0,6.7,1056.4,778.5,56.0,42.7
277.1,0.0,97.4,160.6,11.8,973.9,875.6,28.0,48.28
297.2,0.0,117.5,174.8,9.5,1022.8,753.5,14.0,36.99
376.0,0.0,0.0,214.6,0.0,1003.5,762.4,3.0,16.28
178.0,129.8,118.6,179.9,3.6,1007.3,746.8,3.0,20.73
213.5,0.0,174.2,159.2,11.7,1043.6,771.9,28.0,44.64
446.0,24.0,79.0,162.0,11.6,967.0,712.0,3.0,25.02
424.0,22.0,132.0,178.0,8.5,822.0,750.0,7.0,39.0
289.0,0.0,0.0,192.0,0.0,913.2,895.3,7.0,14.6
193.5,290.2,0.0,185.7,0.0,998.2,704.3,7.0,17.2
277.0,0.0,0.0,191.0,0.0,968.0,856.0,28.0,25.97
250.2,166.8,0.0,203.5,0.0,977.6,694.1,90.0,47.71
102.0,153.0,0.0,192.0,0.0,887.0,942.0,28.0,17.28
153.0,102.0,0.0,192.0,0.0,888.0,943.1,7.0,8.37
500.0,0.0,0.0,200.0,0.0,1125.0,613.0,7.0,33.21
296.0,0.0,0.0,192.0,0.0,1085.0,765.0,28.0,21.65
525.0,0.0,0.0,189.0,0.0,1125.0,613.0,7.0,42.42
156.0,243.0,0.0,180.0,11.0,1022.0,698.0,28.0,37.36
300.0,0.0,120.0,212.0,10.0,878.0,728.0,28.0,23.84
145.0,0.0,179.0,202.0,8.0,824.0,869.0,28.0,10.54
261.9,110.5,86.1,195.4,5.0,895.2,732.6,28.0,33.72
272.8,105.1,81.8,209.7,9.0,904.0,679.7,28.0,37.17
288.4,121.0,0.0,177.4,7.0,907.9,829.5,28.0,42.14
365.316,0.0,0.0,228.933,0.0,844.985,692.99,335.568,51.2807
293.928,78.1683,0.0,207.424,0.0,934.241,678.701,171.861,52.5768
330.801,186.337,0.0,166.866,9.02303,908.433,754.489,3.03513,25.9684
419.812,111.424,0.0,144.078,16.9929,881.973,873.902,29.926,59.8377
374.618,200.089,0.0,154.208,11.8318,913.933,735.824,57.6418,82.086
204.194,0.0,101.453,173.889,6.48629,1040.51,876.274,2.72541,12.7682
162.472,41.4607,152.777,116.811,5.56428,1104.99,790.341,100.968,40.899
193.719,0.0,95.2326,148.619,9.60837,1059.65,875.364,60.2944,43.2105
172.812,39.3153,129.571,148.545,11.0982,1114.61,768.462,28.8148,31.5252
223.203,0.0,116.541,157.539,12.5468,1092.55,851.505,13.4076,43.3673
227.474,54.1613,122.385,159.911,9.18638,1015.82,696.592,3.13147,16.6131
175.363,120.173,122.435,170.229,6.17738,786.173,933.48,27.4453,41.5047
166.18,0.0,148.575,168.571,0.0,909.666,883.195,29.4023,28.0254
167.588,0.0,132.069,153.558,8.41122,1109.82,808.633,94.549,31.9063
467.462,24.2417,113.261,205.151,3.85826,837.594,723.132,28.3719,59.8249
378.478,0.0,0.0,187.973,0.0,850.582,811.503,2.87941,19.4951
396.208,0.0,0.0,190.522,0.0,1009.93,676.201,7.28589,23.6932
329.333,0.0,0.0,185.274,0.0,963.592,774.065,92.9515,36.865
293.281,0.0,0.0,181.879,0.0,1072.18,789.241,28.0603,28.2232
280.358,199.177,0.0,194.437,0.0,968.747,658.213,25.627,45.1591
258.843,163.09,0.0,203.041,0.0,972.044,689.114,2.97524,9.74545
283.368,0.0,0.0,202.726,0.0,1038.96,811.535,7.07024,19.1532
374.975,0.0,0.0,196.892,0.0,1012.01,702.12,6.386,24.1134
395.736,0.0,0.0,191.002,0.0,1175.38,812.295,7.00416,24.4639
286.243,134.931,0.0,175.331,10.1815,835.347,789.592,26.285,47.9648
326.462,0.0,106.472,184.453,8.61073,1097.32,787.707,26.7372,41.9966
317.108,139.315,0.0,134.12,8.64004,1076.42,853.114,27.6463,37.3044
347.987,135.229,0.0,178.21,8.76508,809.755,905.729,29.06,41.7836
280.156,0.0,110.883,161.154,13.2347,919.355,701.104,27.4065,35.9834
328.983,0.0,119.185,223.134,6.04669,867.191,690.089,26.2787,40.2748
281.281,0.0,87.2122,205.057,10.9791,912.984,701.712,27.7098,33.2554
166.322,141.844,0.0,178.826,8.71306,925.787,767.61,28.1249,18.49
271.964,124.599,0.0,175.465,6.72631,947.792,826.881,28.0582,38.7327
367.265,0.0,0.0,171.791,0.0,1113.86,763.419,113.536,43.7642
201.849,145.443,0.0,218.497,0.0,930.526,846.209,26.8457,31.9908
146.138,0.0,106.144,182.078,7.83719,1083.8,768.428,28.1438,12.3309
234.324,0.0,96.8524,209.536,3.99416,936.176,899.958,101.548,40.9767
328.777,227.055,0.0,164.347,14.4969,891.029,888.592,29.8148,56.1203
451.016,96.5252,0.0,135.415,13.6702,891.936,886.651,28.702,63.8543
244.646,0.0,0.0,172.714,0.0,1036.31,812.285,7.24773,13.7318
403.926,19.6919,85.5722,156.621,10.7085,1040.44,804.201,55.5468,62.2535
230.532,238.411,0.0,235.061,0.0,940.864,586.771,28.1613,32.0321
416.784,20.4989,134.315,154.48,9.87487,819.371,752.358,2.8596,34.6309
260.289,104.278,25.0438,171.134,11.7276,1130.26,907.815,3.08559,28.8522
507.642,0.0,0.0,171.053,2.33954,1034.93,686.807,28.0311,60.7594
262.183,0.0,96.4137,175.583,4.68543,956.809,877.707,52.6403,41.4604
335.125,0.0,0.0,207.365,0.0,931.273,840.333,201.705,32.9544
123.345,225.403,177.44,188.902,5.38229,875.657,616.875,30.6735,34.6675
316.954,40.1526,0.0,237.039,0.0,893.545,657.994,162.946,60.3039
322.824,168.595,0.0,175.6,9.20419,1056.4,684.701,28.0135,51.3742
302.607,0.0,0.0,193.838,0.0,965.274,735.311,26.4434,27.2869
393.564,0.0,0.0,197.874,0.0,990.365,835.779,13.7842,25.5791
164.516,279.243,0.0,199.915,0.0,780.178,789.414,28.2732,34.1105
235.185,0.0,100.59,130.657,12.1321,1103.47,775.262,58.1526,46.0074
310.824,112.282,0.0,173.742,6.79128,874.511,748.798,30.1301,41.1659
153.041,228.883,0.0,179.408,12.2303,795.827,1000.99,27.2611,33.9874
331.15,0.0,0.0,165.973,0.0,869.898,828.272,2.65122,15.1749
185.383,0.0,165.767,146.294,11.3776,1043.85,712.53,3.22358,17.5779
509.104,0.0,0.0,149.585,8.45816,978.175,658.787,26.6478,71.3295
419.931,27.6266,67.0738,142.341,11.1581,992.49,685.618,6.80971,48.8426
470.524,0.0,0.0,226.063,0.0,963.349,575.34,89.1111,45.0478
368.19,0.0,0.0,202.417,0.0,939.7,749.429,15.3627,25.557
174.292,220.728,0.0,258.32,0.0,1017.57,592.843,96.5503,49.0773
283.404,0.0,108.938,159.696,13.5877,1027.8,797.039,28.1424,32.8464
185.02,43.664,128.208,157.908,11.2724,1063.37,807.441,2.86256,7.78459
182.313,0.0,177.451,165.731,6.98752,1063.88,760.011,2.8049,13.8227
329.104,0.0,0.0,195.336,0.0,1078.58,746.006,179.996,38.944
309.524,0.0,90.0375,153.85,9.61519,922.317,769.428,104.68,59.7549
179.936,0.0,123.549,167.469,9.63038,1148.62,804.811,13.3847,20.3109
233.348,99.2231,23.9479,171.448,6.58979,1029.49,794.602,31.4215,42.5404
157.975,41.4372,128.855,163.009,11.4111,1000.26,805.111,3.21389,7.89314
220.255,0.0,0.0,164.828,0.0,1111.57,834.982,6.65463,11.0664
250.086,106.991,0.0,215.133,0.0,925.35,652.696,87.3644,46.9786
302.922,0.0,0.0,193.851,0.0,955.564,846.664,179.56,37.8775
300.123,130.41,0.0,202.637,5.55965,879.904,794.302,28.9748,45.0981
224.588,0.0,128.03,159.406,12.0138,1122.25,816.775,51.2842,37.1041
193.344,0.0,174.488,183.28,7.76834,1191.85,772.192,30.5029,27.6002
332.122,0.0,0.0,197.77,0.0,1151.86,728.316,91.0456,40.1655
220.709,0.0,174.081,148.573,10.534,1141.9,690.341,55.783,44.3771
221.187,147.575,0.0,177.738,0.0,1006.44,794.04,28.745,24.8639
266.534,0.0,0.0,184.829,0.0,831.75,993.721,93.942,22.3719
161.443,0.0,147.124,162.767,0.0,963.532,873.698,13.486,16.403
250.17,159.097,0.0,170.297,0.0,998.853,787.632,6.55399,16.3061
575.239,0.0,0.0,154.122,8.51194,845.28,853.39,28.6251,44.2
393.222,21.3336,90.4661,174.883,11.923,866.74,809.29,29.9894,49.5817
314.419,0.0,0.0,190.664,0.0,1071.45,799.036,2.90518,11.7124
357.055,0.0,134.16,196.096,11.2964,806.26,756.489,28.8328,40.4806
167.201,190.059,148.343,178.444,17.9356,774.543,755.31,28.263,35.3438
158.776,0.0,129.056,185.853,8.86717,845.454,852.799,29.8189,9.47613
336.956,0.0,0.0,235.579,0.0,883.869,782.231,92.1271,47.0697
213.592,146.979,0.0,203.737,0.0,1100.63,776.63,6.77662,13.4824
563.682,0.0,0.0,180.108,0.0,1170.13,583.912,27.2187,61.9048
249.828,0.0,0.0,186.759,0.0,1099.87,777.645,26.3258,17.1737
271.499,102.606,79.053,190.693,6.35889,879.761,704.448,27.0277,33.7275
505.527,0.0,0.0,168.503,0.0,1199.02,580.24,3.23102,38.6458
208.463,0.0,0.0,173.379,0.0,1113.77,923.214,6.68169,11.9805
255.981,0.0,84.4705,146.704,12.1033,871.674,885.41,101.494,42.2941
326.837,0.0,0.0,217.778,0.0,982.714,711.871,183.285,31.7875
273.957,97.8668,24.0679,176.056,11.106,1061.03,831.904,25.5312,70.8905
259.658,0.0,0.0,178.692,0.0,1195.81,747.372,7.6141,10.6539
473.461,0.0,0.0,151.436,9.77696,1034.92,718.172,25.9407,55.3098
496.434,0.0,0.0,179.045,5.43098,832.119,933.459,28.7005,63.3424
516.995,0.0,0.0,195.714,0.0,1099.34,586.065,246.621,68.966
287.31,181.957,0.0,210.471,0.0,917.73,769.987,25.7014,40.3371
357.87,179.412,0.0,180.288,9.00918,945.661,795.55,6.88539,33.6052
267.564,0.0,0.0,183.839,0.0,1135.55,711.004,29.6456,19.3088
176.895,13.0866,170.222,166.212,4.14111,1003.97,1111.63,57.6045,36.142
269.228,132.986,0.0,193.166,6.80569,875.038,751.823,28.0002,41.7628
390.469,19.4872,106.38,158.523,14.2742,957.582,853.422,3.17121,28.4554
333.881,0.0,0.0,158.945,0.0,1089.16,761.098,6.83176,19.7704
366.849,0.0,0.0,180.293,0.0,1081.02,743.284,6.8621,20.3028
488.589,0.0,0.0,212.604,0.0,1201.38,615.507,1.02072,12.0082
229.71,0.0,0.0,204.96,0.0,921.424,853.626,194.982,26.0996
286.891,117.782,0.0,190.93,5.73696,832.344,760.341,30.2067,47.8119
167.704,124.063,130.002,165.46,7.90477,1093.94,699.689,99.8872,49.319
454.003,0.0,0.0,153.013,11.0188,999.574,720.614,26.5272,79.861
227.137,0.0,99.6591,224.098,4.95228,978.968,730.615,3.18652,12.4638
288.273,0.0,106.936,230.615,10.599,721.69,766.451,26.7245,30.7418
367.749,180.854,0.0,166.19,10.5988,895.561,841.195,56.9494,66.0531
187.076,133.378,0.0,180.038,0.0,1036.89,764.401,28.6554,23.5892
297.784,0.0,0.0,192.542,0.0,1093.67,804.648,84.32,25.2583
206.283,0.0,179.776,158.191,11.478,1045.48,822.016,14.4678,33.5333
168.743,41.2829,125.402,163.221,10.5735,1125.95,824.637,2.86796,7.04343
320.841,0.0,0.0,193.554,0.0,970.112,734.767,26.379,33.0134
209.535,316.025,0.0,188.505,0.0,997.446,599.176,6.96821,20.8506
243.991,0.0,99.4325,197.232,6.93558,984.023,893.648,2.93019,19.849
371.607,0.0,0.0,190.534,0.0,1004.44,924.716,3.00915,16.1211
454.686,23.5231,75.5563,156.988,10.8327,970.599,756.628,26.7567,52.1332
314.133,191.749,0.0,158.919,12.1768,952.137,738.853,54.5046,75.6845
346.523,279.166,0.0,176.062,10.3271,929.967,733.166,3.24353,30.8216
278.29,0.0,98.8779,161.13,11.374,1010.86,864.246,102.861,60.156
198.863,45.2011,116.353,168.372,7.6561,1159.47,712.948,3.23297,7.77543
213.493,0.0,120.366,149.481,6.74248,1003.11,841.352,14.5684,19.5736
428.153,102.188,0.0,225.429,0.0,1060.31,624.677,351.034,43.5714
293.868,138.654,118.782,213.929,6.06316,817.722,610.58,29.6269,52.4447
441.184,0.0,0.0,159.906,8.73768,956.122,614.079,28.7128,76.7434
264.853,0.0,103.437,146.162,12.1171,969.2,842.087,3.13886,21.788
174.637,0.0,197.315,193.368,12.0481,811.43,891.357,25.8331,15.0888
225.157,0.0,132.45,179.459,7.49745,1064.89,787.322,60.0455,42.3827
161.201,196.079,0.0,180.219,11.9725,989.383,824.444,28.2666,32.3392
250.059,0.0,111.766,180.851,6.08366,1133.5,758.287,99.169,42.203
319.235,163.207,0.0,163.143,9.57574,913.044,734.963,29.7917,53.9568
394.013,20.2296,101.75,157.039,14.3101,953.02,837.683,55.5336,51.1407
249.122,110.286,88.0286,187.006,5.84511,749.079,783.932,27.6844,39.9061
157.285,73.8814,163.18,162.564,7.3836,988.515,758.392,56.7402,54.9237
517.094,0.0,0.0,172.274,6.63694,922.976,723.504,23.8025,60.0308
249.468,0.0,104.613,155.845,13.1338,993.708,920.37,2.86908,20.1647
166.33,195.572,138.326,172.849,18.4517,886.34,657.315,30.4054,40.0947
228.644,0.0,0.0,221.362,0.0,896.538,901.135,176.552,29.1517
279.98,0.0,0.0,197.887,0.0,1154.09,829.085,24.1677,25.0651
346.071,0.0,0.0,183.052,0.0,1057.97,740.917,6.99228,24.4601
180.265,0.0,152.337,182.293,11.6512,799.62,821.43,24.2397,17.0075
371.736,201.418,0.0,165.877,12.18,896.499,703.821,100.608,74.5995
122.342,186.547,0.0,196.935,0.0,835.462,664.935,87.9626,33.3917
216.17,0.0,122.176,157.941,12.3299,1090.26,799.507,3.07778,15.1161
413.996,100.508,0.0,142.408,13.4773,953.459,951.011,85.8338,64.5314
390.999,100.166,0.0,158.903,16.1307,852.394,968.986,94.3858,51.5235
239.049,0.0,0.0,184.294,0.0,1104.4,798.551,27.5965,15.664
226.29,0.0,0.0,160.984,0.0,1204.97,770.207,25.8566,17.6955
166.849,0.0,174.738,131.633,7.38858,1054.28,812.093,97.1906,42.5045
393.538,177.806,0.0,134.95,21.7377,793.743,815.576,3.10402,35.4923
279.764,0.0,0.0,199.805,0.0,1035.11,832.174,28.31,24.0584
264.291,0.0,122.984,160.204,5.93626,1071.82,637.137,57.7955,35.4857
472.568,0.0,0.0,202.102,0.0,992.19,682.742,7.03732,32.3899
198.53,123.052,0.0,189.363,0.0,1022.42,875.858,6.40576,15.5071
204.856,322.831,0.0,191.435,0.0,970.678,676.183,26.2467,39.4919
157.882,0.0,208.583,226.538,11.4307,955.509,803.087,26.6913,8.83979
137.045,186.63,0.0,192.679,0.0,950.209,874.842,8.2875,6.99868
223.965,0.0,92.6352,140.187,10.589,991.531,972.822,2.9309,13.0203
361.969,185.722,0.0,181.122,9.83603,984.094,781.5,6.8235,33.982
155.727,131.162,124.402,179.768,6.45668,774.681,879.266,27.3668,38.0939
219.351,53.422,126.251,135.31,10.5998,1155.51,740.788,3.0335,27.3991
237.191,0.0,98.7694,146.267,14.1772,999.401,878.423,105.967,59.1311
148.529,0.0,148.565,176.011,10.5295,958.085,788.113,25.3629,14.2794
196.445,112.978,0.0,174.572,0.0,1063.23,718.527,29.3089,17.2501
270.665,0.0,0.0,196.055,0.0,876.222,865.953,87.8079,32.1132
206.53,128.756,0.0,173.336,0.0,1066.78,697.761,7.01836,13.6905
546.803,0.0,0.0,189.389,2.73115,1069.88,572.521,29.3878,35.6712
137.937,226.844,0.0,155.451,11.1454,1052.54,578.942,28.9268,36.2522
96.3108,175.773,0.0,175.587,0.0,940.592,866.873,28.567,20.9891
157.364,198.376,0.0,204.235,9.78672,956.908,802.661,26.5804,22.4369
139.581,226.742,0.0,163.373,12.0907,1060.48,676.096,30.3522,36.0059
287.114,0.0,0.0,182.863,0.0,886.091,774.207,12.9688,18.8988
324.844,0.0,0.0,208.825,0.0,915.753,768.031,27.5539,20.7119
133.701,186.037,130.426,162.005,11.0313,867.261,774.619,33.0933,49.1964
139.783,242.43,0.0,168.644,12.0586,773.605,883.596,26.9403,31.028
439.051,20.1807,91.8897,157.725,14.7503,880.99,822.369,3.3298,22.5108
522.46,0.0,0.0,158.031,0.0,1002.24,650.767,8.10424,46.9256
318.005,145.63,0.0,213.903,6.67077,911.958,755.804,27.0202,32.4086
186.332,300.226,0.0,173.917,15.0535,933.516,851.814,26.7964,39.4662
184.718,131.48,0.0,194.092,0.0,1085.88,751.74,26,19.8305
344.52,86.2531,0.0,233.26,0.0,882.728,570.634,7.02337,35.3243
444.651,50.773,0.0,196.526,3.04784,1005.4,642.305,28.2983,39.8264
330.304,0.0,101.322,202.625,5.26274,909.88,877.319,25.7465,40.0143
132.921,163.846,131.123,160.515,10.0762,948.81,777.76,28.3609,25.9271
583.064,0.0,0.0,189.122,0.0,1334.91,614.805,27.9755,58.7951
151.164,169.463,134.618,152.347,9.98233,823.463,822.54,29.2778,44.6245
185.157,0.0,82.5289,207.017,4.37543,977.303,894.759,31.371,25.8136
292.982,0.0,0.0,204.947,0.0,904.145,800.964,174.595,29.4326
273.798,222.678,0.0,136.842,12.486,782.171,890.288,2.9462,27.6766
432.639,111.453,0.0,157.16,16.3679,772.081,812.285,96.3996,66.7662
422.228,155.022,0.0,158.429,16.6893,1185.92,547.441,83.856,59.8119
326.696,0.0,0.0,188.759,0.0,1002.52,707.814,26.4503,21.5592
151.365,145.139,191.593,189.005,8.02096,874.677,619.688,29.8444,24.8936
445.156,173.78,0.0,176.932,11.0202,900.129,656.39,3.30695,37.9331
165.007,0.0,165.921,170.701,4.13139,1186.67,756.316,61.455,28.748
236.436,232.867,0.0,201.509,0.0,1003.09,622.413,87.2364,31.3655
242.023,0.0,95.3037,166.43,6.8482,829.752,863.391,14.1259,23.3102
368.881,195.594,0.0,162.265,11.2242,1000.36,819.959,28.0594,72.742
238.925,0.0,0.0,189.239,0.0,1151.67,814.268,29.0011,19.0468
193.492,0.0,134.528,168.937,7.4397,1102.46,765.498,3.23067,15.8402
450.517,117.078,0.0,129.067,36.815,929.924,745.952,103.14,81.0309
367.62,19.0925,87.044,157.076,14.0698,932.941,862.19,3.1474,21.4193
417.558,46.9497,0.0,206.416,0.0,930.071,611.817,28.0269,40.7599
391.611,0.0,136.173,183.5,22.0443,899.106,744.258,24.7188,69.4967
444.408,107.257,0.0,157.55,15.7772,791.788,858.354,2.77928,38.2465
193.282,0.0,107.489,177.073,6.86037,898.141,989.373,2.77539,12.5398
302.81,0.0,126.725,173.401,10.3325,1047.48,740.484,101.37,55.8369
145.818,216.567,0.0,183.362,0.0,1066.62,774.104,359.26,47.1283
141.927,161.639,122.079,178.176,6.75396,753.313,737.494,26.5724,29.7216
144.781,231.713,0.0,173.284,12.9296,957.286,940.613,28.9306,42.2897
292.805,103.341,27.1022,138.255,10.6776,1022.95,803.056,50.1605,78.5457
565.723,0.0,0.0,191.274,0.0,1067.91,560.459,7.62389,41.0209
217.275,0.0,156.247,151.87,11.6707,1067.89,739.241,55.4879,46.6572
237.894,147.462,0.0,207.369,0.0,1038.35,733.394,7.145,18.8245
219.295,346.588,0.0,183.449,0.0,923.265,711.519,27.7456,40.7669
210.408,51.2391,133.104,149.924,9.13495,982.647,756.7,13.5951,37.0775
276.092,0.0,0.0,208.455,0.0,1079.55,821.44,6.29106,13.2041
174.626,131.324,0.0,169.389,0.0,1099.98,807.955,25.3924,17.9154
180.176,168.198,0.0,224.812,0.0,996.31,697.18,280.197,44.8476
147.022,169.706,139.434,175.158,10.773,895.933,800.485,29.7993,52.2284
173.787,224.259,0.0,234.654,0.0,1014.37,615.481,83.2418,46.3693
456.48,0.0,0.0,215.508,0.0,1181.99,584.717,178.576,53.1559
311.507,0.0,0.0,210.824,0.0,919.863,713.066,29.8235,24.859
190.462,151.951,0.0,169.874,0.0,1124.17,789.429,7.33216,13.1113
507.33,0.0,58.3929,147.772,1.88252,1195.8,585.563,29.7045,66.7033
182.579,86.8238,26.5022,168.773,6.02879,996.137,892.026,3.06061,16.9652
170.038,43.7232,127.114,178.093,8.31228,956.258,670.717,3.20171,7.51589
237.089,0.0,89.0795,216.279,4.72848,969.893,883.031,12.7782,24.0671
237.127,156.935,0.0,184.486,0.0,1062.52,758.792,7.59054,14.8821
270.929,201.441,0.0,205.973,0.0,959.084,663.344,2.97608,16.0677
244.247,151.137,0.0,206.034,0.0,1058.21,711.309,29.4591,28.5313
365.407,36.0283,0.0,245.426,0.0,878.069,677.568,87.679,54.7406
334.488,166.335,0.0,184.516,9.52439,901.485,685.893,22.8581,50.2299
402.739,0.0,0.0,213.561,0.0,1010.23,698.036,27.6312,41.1532
395.716,0.0,0.0,183.093,0.0,1094.5,797.37,30.3775,21.9122
267.833,0.0,0.0,189.331,0.0,889.252,904.253,6.59861,8.86874
125.859,0.0,164.422,162.148,17.2709,933.612,827.172,25.1801,16.4604
184.743,176.594,0.0,207.817,0.0,992.469,725.53,367.019,53.5368
320.137,203.595,0.0,165.303,14.7981,847.652,850.162,92.4793,69.9039
143.879,0.0,153.481,187.187,8.69485,931.102,803.653,29.2925,11.8231
333.016,0.0,0.0,191.878,0.0,1037.37,815.499,25.8031,34.4809
371.581,101.372,0.0,239.888,0.0,944.216,590.219,339.943,40.7495
197.815,0.0,168.014,166.29,11.9854,1080.53,808.395,27.1047,42.7033
343.448,177.105,0.0,190.207,8.67746,815.54,830.06,27.3355,62.3455
317.734,0.0,125.323,176.74,8.66281,980.562,835.508,23.8995,46.6935
285.722,149.995,0.0,186.33,0.0,946.01,569.295,76.6432,40.5871
282.63,129.337,94.7689,167.632,8.95404,1028.16,727.762,29.9714,45.9069
322.429,99.6901,25.5424,155.923,11.0113,1177.01,869.799,52.794,70.4095
208.727,0.0,95.6867,183.565,4.64334,878.337,838.142,54.2381,28.4814
268.229,0.0,0.0,190.575,0.0,1188.32,798.601,26.835,18.7113
333.526,0.0,0.0,198.769,0.0,983.514,734.855,8.26156,27.2273
125.778,0.0,158.74,188.503,8.0857,790.306,827.279,30.4663,10.6211
413.4,20.1112,96.7856,165.131,13.998,903.94,813.334,3.0684,24.2643
187.736,359.694,0.0,188.66,0.0,955.266,649.324,3.21669,9.69139
169.038,242.91,0.0,205.688,6.51557,892.215,733.454,26.0628,30.117
146.389,215.421,0.0,152.238,11.7047,1058.09,771.528,22.5153,40.1022
590.464,0.0,0.0,202.343,0.0,1053.92,720.368,13.1869,53.1765
454.378,0.0,0.0,221.739,0.0,1053,614.85,1.00517,13.1511
109.487,164.866,0.0,183.147,0.0,928.897,1167.39,31.1896,15.1958
375.492,96.4068,0.0,248.479,0.0,837.708,563.966,26.9925,39.5667
400.364,97.9059,0.0,145.619,25.7081,752.178,1006.32,3.14743,26.1936
390.382,0.0,0.0,181.339,0.0,1184.05,829.368,29.5444,24.4293
167.611,228.322,0.0,176.629,10.1337,1000.09,709.166,30.5201,34.6757
166.456,46.829,119.647,167.063,7.99449,1027.1,771.774,3.13911,6.92316
315.804,79.99,0.0,229.791,0.0,887.166,675.129,178.853,50.6587
314.867,0.0,101.617,163.673,13.0096,977.795,717.317,28.4423,36.3366
308.555,0.0,0.0,164.676,0.0,935.269,723.582,7.22018,18.6952
143.545,108.01,79.1414,209.21,7.34184,882.072,814.25,27.0323,24.1582
433.962,22.6551,122.255,181.509,8.04593,934.057,715.202,25.6698,63.4457
353.063,0.0,0.0,192.82,0.0,1027.11,680.362,15.2117,22.4725
305.227,166.811,0.0,188.043,7.90269,833.532,776.21,31.1108,62.2055
258.011,0.0,132.22,201.408,6.06897,1072.97,746.651,2.52131,16.708
346.319,0.0,0.0,180.704,0.0,975.125,945.316,6.86845,19.371
335.476,200.333,0.0,165.582,14.1284,767.398,822.687,51.5847,64.8343
381.301,200.193,0.0,169.56,10.9245,969.701,775.175,7.76843,20.7273
486.048,0.0,0.0,188.025,0.0,1190.79,688.893,6.26399,45.1586
162.488,188.902,0.0,181.373,9.18431,832.379,706.114,28.945,23.9551
330.881,0.0,120.252,172.787,10.5689,1021.88,779.332,27.9181,39.8085
337.205,0.0,0.0,188.662,0.0,1122.19,796.722,3.27336,15.7205
478.748,23.9754,82.1032,175.171,12.6735,938.828,719.176,2.82312,33.2462
559.818,0.0,0.0,201.139,0.0,1244.19,608.48,13.0185,52.6986
455.662,126.362,0.0,141.578,32.6912,861.046,694.859,3.15515,33.4785
405.681,24.2661,85.1144,156.412,11.716,1063.89,666.221,3.03816,36.8898
436.412,181.095,0.0,188.574,11.7741,1016.03,724.081,84.1191,76.4594
133.599,228.876,0.0,216.903,3.42068,748.633,735.194,28.404,31.9027
344.914,0.0,0.0,211.157,0.0,1146.74,759.683,7.54304,20.9798
314.205,133.926,0.0,192.46,5.8386,743.12,763.614,29.1858,34.2631
258.861,0.0,0.0,206.36,0.0,1126.18,766.319,28.9773,15.3051
185.791,179.539,0.0,232.38,0.0,1014.05,681.421,29.1899,39.3258
136.348,139.689,103.559,185.186,7.18325,1079.36,723.721,28.2511,39.6471
292.029,175.868,0.0,177.997,9.00925,885.518,648.577,2.53363,25.6757
239.194,155.771,114.447,185.06,8.59933,726.184,811.044,28.5509,52.9977
495.767,0.0,0.0,152.606,30.0513,921.985,921.116,56.6655,59.7453
355.995,200.85,0.0,186.911,0.0,925.321,719.761,6.88397,20.142
312.613,204.279,0.0,195.52,10.5451,841.663,862.059,2.97705,32.953
200.218,0.0,184.084,141.069,11.001,1014.04,764.391,57.3042,47.4979
185.323,0.0,146.704,163.202,9.91003,1121.79,781.678,16.1008,22.0897
238.359,0.0,101.037,150.466,11.6312,922.665,967.276,2.94451,17.3303
342.411,0.0,0.0,198.766,0.0,969.145,873.944,23.5869,31.4055
198.581,0.0,108.853,172.903,4.68186,1042.05,640.834,110.196,34.3009
272.031,100.491,76.782,183.328,5.80647,860.123,766.421,27.7437,33.0987
160.693,117.125,0.0,212.104,0.0,900.188,848.427,28.1529,26.1403
150.311,162.182,131.941,182.029,8.5157,1032.45,712.366,26.4515,32.8023
307.133,0.0,0.0,197.382,0.0,1085.79,826.107,7.24638,20.8158
162.394,260.929,0.0,166.988,9.17188,1041.09,676.768,30.171,37.5482
377.613,0.0,0.0,213.327,0.0,955.658,898.605,24.516,25.9774
328.683,18.1599,154.234,160.774,10.1459,1003.6,770.331,58.3197,64.1319
324.859,0.0,0.0,180.545,3.1451,1136.68,821.219,27.7877,41.4765
318.599,0.0,0.0,204.219,0.0,810.435,993.951,2.84194,13.0616
310.916,208.008,0.0,157.748,10.2257,989.636,694.647,3.19076,25.6387
346.824,192.22,0.0,166.668,9.76577,887.476,756.78,7.05075,32.5289
161.137,221.31,0.0,182.645,9.47507,1065.05,800.722,30.6724,33.317
221.794,110.236,0.0,155.077,0.0,1180.89,909.167,28.8633,17.4101
366.625,177.688,0.0,166.658,11.2614,1062.75,780.623,7.10291,60.6463
380.456,22.6964,144.241,140.267,8.64239,827.206,678.911,8.66204,40.1392
252.616,0.0,98.407,160.868,11.3781,1010.14,830.652,14.7219,30.011
398.97,98.8944,0.0,216.418,0.0,982.862,504.836,184.561,34.4544
358.057,0.0,0.0,192.501,0.0,1069.51,780.339,174.889,37.6623
216.771,0.0,133.909,164.791,7.99478,1051.69,826.333,84.67,40.3733
311.686,0.0,0.0,176.15,0.0,827.774,792.209,3.04125,12.9317
170.495,194.982,0.0,176.049,8.1523,899.121,886.764,26.7677,23.783
142.174,187.213,0.0,179.131,3.44284,972.938,771.697,30.7468,23.1389
263.523,132.57,116.631,211.43,5.97806,1013.74,623.149,28.8671,51.9585
196.112,326.539,0.0,186.148,0.0,977.468,689.035,8.20234,20.4746
412.502,205.366,0.0,144.352,10.6299,904.499,750.963,82.7078,75.4547
160.513,236.538,0.0,245.556,6.01404,1120.39,764.018,25.1381,25.294
325.187,0.0,0.0,194.995,0.0,1026.42,829.977,55.7096,30.088
169.392,72.658,162.617,153.706,8.39518,1046.16,734.276,94.8926,59.4772
291.756,0.0,100.251,169.554,10.1902,1223.3,751.929,2.97509,22.984
198.857,0.0,141.404,186.11,6.13536,1098.65,777.354,28.2112,24.923
433.838,0.0,0.0,160.125,0.0,968.18,789.133,28.2286,37.2172
405.004,200.147,0.0,163.02,11.5535,1008.88,750.282,7.3334,57.9642
245.798,0.0,98.8202,200.806,4.92574,857.72,871.818,24.572,24.8423
151.768,213.838,0.0,196.091,0.0,1169,905.797,6.91436,7.80223
305.159,0.0,0.0,187.502,0.0,1108.32,791.494,392.142,33.5735
561.601,0.0,0.0,168.902,6.13206,873.498,702.468,26.7115,57.9289
179.264,101.305,156.164,159.32,9.50596,1059.45,737.581,57.8273,47.2941
153.657,219.57,0.0,186.552,0.0,1138.93,874.16,25.3478,27.1352
141.594,0.0,106.104,184.133,7.88166,1119.93,779.075,29.5479,12.5993
286.361,0.0,0.0,172.943,0.0,965.558,822.243,91.6176,31.7957
304.326,224.339,0.0,165.004,13.0145,850.066,919.492,7.66612,35.7927
175.42,0.0,122.457,171.513,12.2534,1035.1,838.26,2.92418,18.6359
348.04,0.0,0.0,180.914,7.84004,930.529,850.716,27.3367,23.4854
193.789,0.0,116.032,137.835,7.91299,1054.63,696.808,2.86481,20.459
237.233,0.0,120.064,160.393,5.5951,1034.86,891.893,53.3205,33.6067
297.005,251.443,0.0,160.592,9.40838,1020.85,688.396,25.9652,58.2278
389.636,21.3465,112.241,159.732,13.0743,896.837,886.239,53.5933,53.1308
238.376,153.233,0.0,184.338,0.0,872.481,773.495,6.9733,21.1166
218.635,0.0,97.8686,158.04,10.6213,1011.81,805.293,14.6662,24.2266
333.132,94.7915,0.0,215.896,0.0,882.667,617.251,279.296,41.9241
155.09,0.0,137.058,185.567,9.52793,1127.7,828.594,27.0346,12.7096
299.124,209.612,0.0,155.477,12.1172,690.359,760.769,57.406,58.4612
270.92,186.195,0.0,177.608,0.0,1027.08,718.026,25.8522,35.0723
213.036,164.816,0.0,197.173,0.0,918.895,718.705,74.4002,46.0225
174.594,0.0,165.601,168.445,7.38128,1149.49,830.791,13.5148,24.5213
135.623,259,0.0,168.73,0.0,990.629,711.308,95.9392,45.1795
409.061,107.325,0.0,147.315,17.5099,1015.93,768.54,58.0272,64.1134
132.137,0.0,147.274,163.576,11.3198,976.841,812.365,30.4964,12.8133
186.041,11.5948,132.528,189.187,1.38824,950.424,820.655,28.0191,23.4908
322.172,0.0,0.0,186.393,8.45162,1037.89,802.849,27.9858,26.3672
260.412,0.0,93.1781,191.927,5.49257,967.248,837.923,54.8853,39.5926
232.324,0.0,118.65,164.715,6.25749,972.577,816.036,60.4458,39.8741
387.401,20.4616,146.456,141.519,11.7567,803.181,721.026,29.0289,69.7663
347.49,0.0,107.453,188.702,6.49631,929.165,684.228,26.3151,40.7586
290.829,0.0,102.744,234.421,11.0074,851.831,791.017,24.4639,31.39
340.86,195.238,0.0,181.291,11.8268,1002.64,750.111,7.61562,59.0154
141.807,0.0,190.041,214.893,8.17262,736.824,746.406,28.4502,10.4086
499.583,0.0,0.0,178.29,0.0,1029.09,578.14,26.7524,69.5283
272.331,75.0582,0.0,227.621,0.0,989.74,641.864,264.761,55.7226
282.167,100.331,20.589,139.669,9.89315,1058.61,801.056,12.9218,51.8472
192.848,0.0,103.543,169.603,6.46865,830.15,960.065,60.7688,33.6155
206.404,0.0,95.2432,170.297,9.78049,1081.4,967.771,57.3311,44.585
350.144,0.0,0.0,192.641,0.0,1099.17,832.648,83.3424,43.3754
269.081,146.232,0.0,193.485,0.0,1138.76,671.029,31.435,29.4158
380.236,200.187,0.0,161.86,22.5931,948.193,744.293,3.10605,43.1704
459.488,96.2504,0.0,148.574,16.8003,860.047,686.227,50.4422,68.2902
425.685,190.759,0.0,177.988,11.0337,857.017,657.666,27.1208,64.7749
167.24,233.847,0.0,181.233,0.0,1020.14,729.72,29.5287,21.2924
505.989,28.8216,123.064,211.002,3.71056,885.416,718.584,26.972,56.8422
167.266,164.44,112.288,214.108,10.1777,892.416,723.887,26.9287,15.4216
166.148,201.766,153.448,173.474,18.7062,862.907,791.776,29.4927,35.5633
452.568,173.255,0.0,167.392,11.6979,1111.6,828.037,27.373,82.9247
136.075,181.266,0.0,200.23,0.0,1003.95,833.329,27.2079,16.0103
181.78,0.0,123.244,168.06,10.5916,1136.29,749.026,94.445,40.9297
295.999,123.092,0.0,180.642,7.43411,887.372,760.895,25.2718,47.2778
151.961,241.879,0.0,188.592,0.0,1021.55,784.43,27.1827,20.7914
403.518,25.9625,70.363,146.084,11.852,872.061,702.302,2.88033,21.6491
504.967,0.0,0.0,135.943,29.7421,840.654,1014.52,6.26783,42.9677
231.221,0.0,118.072,203.918,5.54565,889.442,690.604,59.3097,37.6733
452.942,24.7399,85.8097,146.384,11.3647,968.187,711.382,60.0405,56.2463
162.614,244.097,0.0,188.316,0.0,956.497,785.87,93.6566,45.4615
274.749,110.143,0.0,185.036,6.25364,932.377,848.857,30.7848,37.3119
195.233,129.846,0.0,209.782,0.0,987.173,753.574,28.061,23.0942
175.564,0.0,180.347,201.708,13.2516,877.42,895.686,26.7021,16.3461
122.403,13.462,199.03,184.016,5.69414,899.097,616.801,30.9128,15.056
241.006,0.0,122.553,183.169,6.06339,1190.07,662.939,56.3772,27.0063
508.671,0.0,0.0,179.868,0.0,1066.44,595.645,12.4864,35.805
309.876,132.194,0.0,218.465,0.0,903.311,617.158,29.5503,33.265
175.681,13.3127,170.458,144.702,4.35323,1064.43,865.003,52.6976,39.5127
235.184,0.0,0.0,181.809,0.0,1036.79,865.891,363.942,25.5599
182.386,0.0,127.485,161.352,9.90638,1077.61,774.063,52.3516,30.3846
315.279,0.0,0.0,199.26,0.0,1105.37,830.036,7.23732,17.0495
205.44,145.501,0.0,213.656,0.0,998.308,802.569,7.02396,17.7808
258.097,196.336,0.0,171.333,13.6849,715.157,853.89,54.9085,68.7365
227.814,98.1955,24.0796,171.991,6.71915,1015.71,782.169,27.574,42.4443
327.442,0.0,0.0,208.644,0.0,957.547,774.395,7.0774,16.1765
169.071,182.503,219.002,167.963,7.26864,945.243,699.14,23.9027,23.4355
208.179,0.0,117.306,154.913,11.4853,1128.13,746.064,25.9126,29.9475
242.649,156.936,0.0,201.397,0.0,993.858,748.29,96.2865,46.1066
117.927,245.762,0.0,160.857,11.1957,927.993,703.696,30.1342,36.7583
498.754,106.712,0.0,184.277,9.8597,898.546,758.395,2.91742,36.2641
210.932,93.7927,24.0576,182.442,6.95304,1072.29,787.638,97.6131,53.7801
225.464,0.0,0.0,195.382,0.0,1195.25,706.631,7.21952,12.36
245.303,0.0,120.885,193.88,6.24576,1237.63,755.647,2.94774,18.0481
435.527,174.065,0.0,202.004,10.9504,1054.1,853.293,28.4027,77.5216
222.895,157.453,0.0,170.636,0.0,896.53,614.253,29.8474,26.6549
208.874,36.6868,107.827,163.463,9.23752,1179.1,814.864,54.5864,37.4392
468.647,0.0,59.286,196.425,0.0,1065.52,609.172,29.3147,67.4155
218.586,115.843,86.2146,206.294,6.36134,966.024,660.098,27.6704,47.2049
302.701,0.0,111.239,185.916,8.14353,970.2,746.94,30.6894,37.386
132.806,169.595,144.368,138.681,10.1834,955.191,750.865,28.6329,27.2778
358.192,0.0,0.0,181.913,6.58159,974.361,722.291,28.2564,39.8468
479.768,0.0,0.0,175.802,0.0,1128.31,622.256,176.706,56.4159
164.863,0.0,173.341,147.959,14.3101,859.617,796.645,26.9958,15.7789
263.948,0.0,97.3244,129.786,14.8921,960.289,854.738,13.5674,38.89
191.618,0.0,133.807,170.774,6.95803,1060.63,729.065,110.418,42.9211
207.972,0.0,135.282,217.022,5.91398,984.262,782.164,13.1303,19.7827
261.498,121.703,0.0,183.968,7.20184,962.241,706.854,26.9726,39.853
176.452,263.96,0.0,195.539,11.4974,877.093,956.478,26.8779,40.5532
248.25,105.849,73.6699,192.346,8.38504,878.329,767.919,26.5999,32.5907
221.224,229.571,0.0,188.735,0.0,1146.74,673.926,103.706,33.3779
166.789,132.777,134.96,179.698,7.66617,1150.87,790.182,3.2391,14.5126
170.58,119.53,120.745,175.755,8.12822,907.982,710.427,57.7111,50.1498
203.273,0.0,110.744,165.381,6.92503,1112.15,769.538,2.90193,12.9516
162.624,126.575,128.132,194.899,7.84061,1093.25,732.946,25.2355,37.5489
299.436,0.0,0.0,182.002,0.0,939.356,881.604,7.17505,14.8715
272.515,102.308,90.4546,172.904,9.90504,905.081,732.044,30.4136,38.0526
393.314,101.122,0.0,141.305,14.491,911.072,880.185,53.3507,67.6935
258.085,121.436,81.753,180.376,8.62191,882.629,664.004,27.9712,50.0581
343.739,0.0,111.555,175.978,10.9841,816.179,904.966,30.1531,40.6307
372.026,88.5855,0.0,244.272,0.0,875.887,597.215,385.193,39.5197
365.89,223.16,0.0,135.611,11.4277,856.242,837.238,2.89765,27.3621
381.526,195.624,0.0,146.981,22.43,1012.2,798.171,30.0764,74.9779
110.726,183.315,0.0,183.056,0.0,965.846,965.211,29.9198,22.173
393.896,19.6647,94.0203,183.64,9.89071,895.475,846.415,55.3189,61.703
127.537,164.404,0.0,183.575,0.0,978.017,788.423,2.76318,3.18944
127.152,134.113,108.188,211.567,8.21714,929.156,747.796,25.6515,23.4321
149.237,240.202,0.0,177.179,14.5182,1112.96,720.565,27.1581,38.0644
202.739,125.518,0.0,198.541,0.0,977.088,857.891,98.4772,39.9509
197.967,0.0,120.916,174.875,6.65683,1025.59,754.429,25.1874,24.0223
163.85,40.1089,186.047,126.989,6.00196,982.891,820.386,63.0018,29.8467
242.61,142.987,98.9886,192.702,8.82378,744.715,842.711,28.8987,55.2918
241.953,114.733,78.4589,166.365,8.67931,857.612,715.948,26.4487,29.7069
382.288,194.725,0.0,172.765,11.9912,1023.55,850.183,7.48469,59.0951
335.089,172.867,0.0,169.659,10.3084,979.087,760.655,6.35069,36.1881
409.785,190.216,0.0,147.831,22.9395,1031.41,762.074,3.1322,41.3324
131.527,164.968,0.0,187.441,2.046,946.77,934.63,28.7376,27.5698
377.728,182.924,0.0,181.147,10.2088,979.666,703.732,27.4953,68.5203
475.567,51.1857,0.0,187.548,0.0,949.604,665.09,27.9114,36.7023
380.805,19.1246,91.4314,157.095,11.5644,956.935,785.881,6.81269,37.0172
232.134,0.0,101.05,163.637,10.0421,1019,856.602,24.714,41.456
182.855,129.455,129.566,171.054,8.92785,1099.02,751.561,57.305,56.1658
155.774,0.0,210.231,158.399,15.4686,1185.18,673.004,30.4508,15.3658
156.254,125.105,80.8629,185.364,5.73401,957.761,709.476,28.1834,22.8751
310.84,0.0,0.0,212.29,0.0,1058.3,813.695,27.7938,21.2087
194.287,0.0,124.932,162.57,8.12199,1199.36,689.607,93.4578,32.9708
139.398,97.9549,193.12,204.81,6.72431,1079.29,626.375,28.6577,22.3357
157.289,0.0,169.545,180.367,10.3696,800.236,771.49,30.116,17.3784
327.141,0.0,0.0,201.064,0.0,1021.92,786.587,2.55988,13.6153
320.554,315.363,0.0,221.504,10.2426,952.25,629.155,63.1188,83.4655
206.556,0.0,120.114,180.024,5.76978,1183.57,777.435,54.1157,36.6731
393.685,18.6922,87.0297,146.492,15.2734,945.629,817.904,7.72063,44.094
159.733,224.602,0.0,190.279,0.0,940.989,768.215,77.9514,41.591
363.85,0.0,0.0,187.331,0.0,1158.18,712.856,28.7519,28.4176
133.223,187.573,0.0,233.683,2.54855,992.785,890.121,28.0947,32.2644
235.451,0.0,91.6076,146.957,12.5485,1015.54,863.811,2.65407,22.9222
477.089,23.5844,74.0649,178.778,9.69715,928.197,725.653,26.8166,57.1965
190.822,136.811,125.085,187.827,3.36466,868.394,693.769,94.3922,48.1993
251.689,100.165,0.0,261.575,0.0,977.441,678.353,273.387,57.5788
294.098,0.0,0.0,214.365,0.0,1124.62,740.092,26.7285,24.5452
367.117,228.893,0.0,187.016,0.0,1137.49,763.228,25.5431,43.7101
251.341,0.0,104.559,164.014,13.069,1033.63,873.599,2.94402,19.8792
297.219,18.1119,131.634,158.892,12.9265,927.635,702.425,2.68669,27.0901
448.628,23.1432,84.893,156.733,11.1081,931.53,683.041,2.85463,34.4997
390.311,173.489,0.0,152.092,20.5358,979.973,917.212,7.6685,53.8636
141.073,163.105,130.802,231.024,5.53786,971.451,665.214,27.0624,34.008
257.631,0.0,0.0,171.521,0.0,1088.4,844.049,27.8085,22.5827
390.726,192.268,0.0,163.274,12.4567,1042.26,759.199,92.4749,76.1123
328.117,0.0,0.0,155.538,0.0,1068.28,712.086,6.4367,19.0458
338.895,0.0,0.0,170.015,0.0,996.333,812.225,6.66103,17.7903
191.046,0.0,191.19,171.942,10.5121,1101.71,767.486,2.74252,16.0351
215.411,0.0,166.001,141.101,10.5049,1029.24,840.952,57.4663,45.2495
262.061,0.0,114.172,153.318,11.1873,1218.85,716.05,2.61911,22.8302
275.199,0.0,0.0,189.209,0.0,971.677,867.677,198.22,23.1812
175.303,90.4981,154.321,156.732,10.3198,915.756,714.16,57.2268,46.8256
525.563,0.0,0.0,185.457,0.0,1126.76,637.172,12.9465,33.7778
218.74,0.0,86.1832,177.948,5.61739,898.375,837.929,2.8418,13.2901
175.91,0.0,112.941,160.308,9.59337,984.099,738.581,101.928,30.4126
160.781,273.033,0.0,189.948,0.0,808.718,827.431,29.8503,35.2756
150.786,197.352,175.82,184.82,10.8455,783.606,625.244,30.4255,31.8678
355.617,146.395,0.0,222.38,0.0,892.595,543.856,264.421,42.8567
252.777,0.0,133.522,142.25,12.2115,917.208,756.323,25.6827,55.3904
140.811,214.805,0.0,194.544,0.0,1058.61,737.543,7.62047,7.04155
294.961,0.0,105.235,223.729,11.5415,829.352,753.186,29.1099,33.6652
132.927,110.475,189.537,211.877,5.95901,936.059,685.053,28.8945,25.3119
127.131,180.537,125.382,134.516,8.50522,905.392,713.524,25.3686,29.1902
510.389,0.0,0.0,159.692,8.52012,899.386,779.781,30.778,44.4306
407.434,184.366,0.0,161.195,12.3015,975.355,805.716,99.0346,85.9442
205.437,0.0,99.1524,173.223,6.95691,1052.21,879.878,101.407,45.034
384.857,294.84,0.0,196.197,10.5904,998.268,670.318,6.96411,48.9535
206.352,44.7389,113.842,160.661,7.74468,831.734,742.776,2.79303,7.2469
430.342,22.5218,83.3592,158.128,11.2768,949.208,683.932,58.9746,59.3755
188.223,130.601,120.879,182.794,3.26761,1049.04,711.821,14.1685,33.2706
382.11,19.7224,90.414,152.781,14.2142,995.862,917.571,59.941,50.6886
227.33,0.0,124.637,142.419,11.4039,1120.44,771.751,14.0511,41.231
182.156,0.0,126.627,157.611,9.90366,1246.14,687.107,28.2949,24.3329
334.476,0.0,0.0,199.031,0.0,939.006,730.564,173.371,30.472
501.689,0.0,0.0,194.572,0.0,1066.42,683.021,6.84614,30.08
188.195,0.0,124.825,158.402,10.8467,1062.63,799.899,2.88121,16.4765
151.734,151,0.0,176.295,3.51927,1048.51,822.526,27.4793,22.9257
328.667,0.0,114.028,166.653,8.62032,1004.57,767.997,25.2297,48.3409
147.306,203.622,0.0,186.488,0.0,1096.49,662.817,6.8377,9.70161
157.87,283.037,0.0,211.671,0.0,1020.45,734.007,26.1275,23.6733
172.515,137.233,0.0,216.461,0.0,937.488,740.756,3.16215,5.01228
326.246,252.766,0.0,182.66,9.41494,980.103,666.717,55.2154,79.3213
253.045,113.069,90.0923,220.87,5.10871,848.016,761.582,27.8017,33.3562
292.684,205.052,0.0,130.258,12.8672,969.054,769.172,63.0712,77.1249
173.907,0.0,202,204.096,12.1954,996.741,839.108,28.9449,14.4947
244.264,0.0,98.3825,167.617,5.12556,1033.77,776.058,103.06,45.1221
394.568,24.2448,82.6031,166.459,12.5184,1041.17,719.804,2.88245,35.6364
277.881,0.0,0.0,184.142,0.0,1142.93,832.271,6.67731,13.555
288.464,0.0,0.0,186.54,0.0,1040.92,1010.79,3.06232,10.3105
148.631,0.0,158.219,172.077,5.05562,1138.43,792.44,2.88609,10.8166
367.571,163.194,0.0,143.584,13.4749,1173.89,678.352,64.8022,58.4548
333.581,0.0,122.823,203.607,5.95022,875.689,628.419,27.0189,40.4124
278.319,121.346,97.6779,176.815,9.3395,837.817,866.105,27.0962,48.965
249.042,192.322,86.3076,145.8,9.71209,972.982,860.312,28.1249,70.7092
167.483,244.418,0.0,197.866,0.0,929.048,769.853,7.5177,17.6462
339.094,0.0,0.0,193.928,0.0,918.368,887.929,349.622,42.2482
283.182,0.0,136.827,131.408,12.1404,1186.78,779.986,13.0668,45.0757
231.462,0.0,143.238,155.192,12.852,975.842,810.873,14.1917,29.743
169.523,104.793,163.92,174.656,9.62148,1047.76,724.671,55.9593,47.8666
109.421,157.147,0.0,176.584,0.0,927.846,1003.08,6.12152,6.97939
350.688,246.374,0.0,162.48,8.69075,994.589,575.178,3.01548,31.3396
492.932,0.0,0.0,154.072,0.0,1045.08,727.659,28.9119,85.068
152.272,144.898,0.0,184.148,7.77049,947.012,784.751,29.7456,18.7063
157.385,0.0,164.857,178.322,4.49607,1081.96,819.926,13.2555,25.9612
248.621,0.0,97.3259,201.478,4.2729,965.896,876.375,104.45,43.8655
127.572,0.0,164.329,195.749,3.85086,1074.21,651.476,2.86664,10.3659
181.536,195.678,164.645,214.022,10.477,902.486,602.151,25.3327,40.4338
313.971,0.0,110.536,177.112,8.35819,954.794,886.55,26.2136,36.4721
353.755,39.0587,0.0,230.484,0.0,930.735,615.9,309.228,58.8726
148.691,174.035,0.0,181.95,1.8214,989.727,771.101,24.4189,27.0966
367.039,0.0,0.0,217.221,0.0,987.768,709.728,27.7239,25.1261
432.743,20.7982,79.0043,146.29,11.4842,1032.68,635.432,61.1909,55.2013
180.924,207.666,0.0,229.59,0.0,997.464,699.421,27.8416,34.2392
384.574,90.0934,0.0,151.558,17.4384,739.283,876.473,30.3868,57.4968
372.379,97.6028,0.0,154.352,12.508,819.006,1026.51,92.0763,57.3815
127.794,123.73,100.115,184.571,6.98645,907.805,763.051,28.9781,25.2028
171.046,0.0,185.134,170.278,7.56729,998.599,676.313,3.16314,15.1114
374.018,0.0,0.0,204.372,0.0,961.786,818.009,66.2618,32.9493
384.328,21.2092,85.4067,127.545,9.71439,960.837,933.552,2.67528,32.9621
157.611,184.175,0.0,174.014,10.1438,987.455,778.298,27.8309,30.8227
266.913,0.0,140.856,140.035,11.7168,1186.9,766.736,2.96952,23.4933
188.02,0.0,123.046,149.892,9.5038,1095.58,769.132,93.1696,54.1397
147.487,0.0,134.997,159.46,17.4696,1045.89,819.29,27.3427,18.312
399.552,0.0,0.0,174.111,0.0,961.362,724.642,27.9842,39.0475
169.267,100.965,0.0,173.32,0.0,848.505,997.292,3.11115,5.30744
170.453,130.089,130.801,193.883,7.73675,1064.64,714.899,26.9097,37.6868
479.503,0.0,0.0,205.852,0.0,1185.89,712.082,6.57674,30.4928
167.866,0.0,159.229,156.127,4.33117,1082.97,757.979,101.693,31.9982
221.927,0.0,106.661,190.361,7.44561,814.704,1009.58,54.5138,40.2545
321.495,0.0,0.0,211.56,0.0,973.306,858.905,3.30865,10.7928
166.04,13.8917,168.004,159.185,4.16884,1098.09,884.278,23.9779,32.9924
358.04,0.0,0.0,199.025,0.0,985.573,840.066,183.037,43.4251
225.619,117.392,0.0,216.904,0.0,924.376,685.714,101.311,46.2432
144.131,0.0,191.409,162.026,12.2303,1024.23,854.011,27.88,14.8785
209.322,123.481,0.0,190.208,0.0,1109.62,702.832,29.2555,16.4333
197.781,0.0,113.211,175.018,5.78564,1115.43,830.453,14.3734,24.0789
501.445,0.0,0.0,177.651,6.5653,966.681,734.364,24.9021,52.8081
326.161,0.0,0.0,199.557,0.0,983.81,839.442,2.80542,11.1769
497.541,0.0,0.0,164.042,6.51671,921.671,675.128,21.3634,56.2102
226.394,0.0,176.35,181.266,12.2138,982.407,776.693,110.91,65.0618
370.688,0.0,0.0,183.646,0.0,940.899,705.102,7.54818,25.3095
320.539,0.0,0.0,185,0.0,1014.62,833.362,7.12344,17.6053
325.839,187.932,0.0,160.909,9.35811,988.85,799.835,6.64801,32.8357
344.59,178.95,0.0,154.219,11.0617,1030.78,686.465,6.50452,61.9542
469.548,52.2191,0.0,253.878,0.0,988.94,561.252,177.927,40.4761
269.278,191.797,0.0,201.995,0.0,862.808,728.693,3.02583,16.5806
418.297,18.8573,90.2808,157.179,14.6485,870.429,794.336,6.80013,35.7916
361.776,0.0,0.0,193.279,0.0,1056.69,806.209,29.7243,34.924
467.961,115.895,0.0,155.695,15.4396,689.695,960.218,3.32154,37.0883
298.005,192.081,0.0,160.113,14.4286,801.605,797.896,56.1543,61.9096
304.014,0.0,0.0,201.039,0.0,951.146,874.323,13.0155,27.6629
351.829,0.0,0.0,181.501,0.0,991.709,711.874,6.47559,20.477
484.288,25.1648,120.717,235.536,4.10632,816.544,597.79,2.95052,30.8998
157.497,0.0,182.014,163.023,15.8457,827.229,831.042,28.0386,15.5463
324.294,0.0,0.0,188.967,0.0,1008.58,865.339,6.52388,19.33
185.541,0.0,76.7974,178.262,7.93936,1108.98,775.85,3.08624,12.0371
423.763,114.449,0.0,183.547,14.8016,769.697,893.289,3.16975,37.2359
431.603,0.0,0.0,185.078,0.0,922.482,633.973,6.99973,26.6278
148.538,0.0,134.065,162.013,11.8229,1033.83,820.952,29.2298,13.8788
182.739,37.848,109.206,170.821,9.41367,1116.23,735.076,61.2504,36.5536
264.692,150.073,105.949,176.097,9.23242,786.558,710.294,27.7433,52.0016
226.857,129.052,0.0,173.731,0.0,1081.92,647.641,26.4714,24.3354
286.214,197.847,0.0,179.585,0.0,1040.07,691.437,30.6227,32.4797
328.663,194.476,0.0,193.159,8.3183,772.388,861.455,25.1764,61.0216
136.705,212.674,0.0,186.639,0.0,911.48,778.257,7.83083,10.8163
186.998,0.0,134.82,157.276,8.1302,906.936,787.553,2.83975,15.896
218.889,58.0149,130.796,168.552,8.25353,1126.4,633.564,3.04784,16.8793
294.854,126.888,93.1546,181.182,8.45559,817.21,636.972,31.0686,42.5503
250.831,142.918,0.0,192.966,0.0,909.405,670.048,28.533,29.9056
264.886,206.728,0.0,153.769,14.3881,705.892,891.383,54.7966,66.358
176.803,37.3808,122.7,151.415,10.8933,1147.7,799.216,30.0312,31.0601
485.544,25.7988,118.872,200.856,3.83409,840.421,639.656,3.1871,28.4569
116.157,170.681,0.0,214.885,0.0,901.785,800.098,2.95888,2.54994
187.853,187.892,177.419,188.859,7.65693,904.78,668.392,31.6202,19.2097
237.092,0.0,0.0,219.053,0.0,937.748,862.62,327.53,21.8984
142.769,126.314,120.184,181.784,5.69734,861.646,948.162,26.4885,32.2336
433.923,24.8712,76.6143,154.631,11.2062,936.593,719.216,29.7557,48.7173
172.958,146.486,118.379,204.831,7.7563,986.811,625.964,31.1829,23.7438
379.762,0.0,0.0,176.488,0.0,1015.17,673.712,6.71821,22.9016
149.12,185.419,0.0,185.106,2.14536,861.346,702.843,31.3056,30.1778
274.989,0.0,118.927,164.421,8.86899,1069.04,815.656,100.574,59.8138
539.259,0.0,0.0,213.105,0.0,1186.28,590.302,265.645,52.1611
308.965,79.2729,0.0,238.936,0.0,863.582,688.815,86.5523,45.9
259.65,0.0,0.0,195.85,0.0,862.007,1059.88,27.9599,19.68
240.921,0.0,101.69,203.62,5.38309,951.457,761.394,28.5759,25.2682
365.452,0.0,0.0,208.731,0.0,1021.56,806.286,29.2449,25.8855
222.272,56.4164,125.975,159.049,9.37928,1073.63,766.195,2.89333,17.6382
227.422,170.379,0.0,174.522,0.0,952.803,787.656,28.5581,28.0296
122.371,146.341,0.0,208.889,0.0,946.44,893.234,3.08561,6.32575
236.304,330.825,0.0,176.254,0.0,996.765,659.118,7.04192,20.2023
241.782,103.69,85.5873,179.232,8.87565,892.711,810.636,25.6031,43.3305
182.056,234.981,0.0,187.016,0.0,960.139,685.723,103.109,41.6298
228.011,0.0,184.117,161.912,11.5993,1037.13,789.546,87.4652,46.6474
273.309,0.0,0.0,189.133,0.0,1061.05,835.273,26.8116,23.8079
264.538,124.121,0.0,203.996,6.60343,882.83,735.307,24.8171,44.255
550.502,0.0,0.0,137.962,27.8723,810.834,1001.86,7.14872,42.044
135.19,166.124,0.0,185.64,2.90871,938.815,862.596,28.7896,26.0581
209.533,0.0,125.169,189.53,5.94903,926.66,719.3,98.0916,42.9693
290.311,0.0,99.1719,167.602,9.28854,949.738,843.713,55.7146,48.8886
213.974,44.8514,109.042,158.266,8.14513,1031.16,709.477,2.93578,8.45972
306.817,0.0,0.0,169.742,0.0,1056.03,754.584,15.909,22.8657
266.286,163.931,0.0,207.945,0.0,933.792,644.392,27.4658,37.8264
541.454,0.0,0.0,193.403,0.0,1048.97,631.384,26.6815,51.7184
335.621,173.817,0.0,172.05,12.1789,919.951,876.828,2.9141,33.0989
422.531,0.0,57.1917,133.318,1.8909,1109.09,694.889,30.2001,55.4393
204.522,190.969,0.0,234.924,0.0,830.461,592.394,30.7428,44.2615
302.123,0.0,0.0,190.082,0.0,914.696,930.931,89.3684,32.9609
313.724,75.2464,0.0,283.409,0.0,1112.56,665.909,269.827,48.1387
377.1,188.735,0.0,170.847,10.6525,876.762,742.505,7.42312,46.6985
157.741,0.0,196.934,162.274,16.8338,955.837,809.074,26.3485,13.346
467.278,23.9823,79.9253,147.688,13.5756,860.236,720.194,2.89782,24.6291
346.622,0.0,0.0,203.088,0.0,995.882,700.465,11.3429,22.586
399.891,188.827,0.0,165.499,11.0892,991.79,790.87,7.06636,52.3973
279.089,0.0,106.57,165.42,12.6378,940.079,837.815,61.3495,44.5545
158.584,175.106,0.0,173.422,2.7445,1030.05,879.084,32.0816,23.8531
144.306,150.955,118.048,163.999,7.20113,935.125,758.394,28.5616,25.0745
263.208,135.002,0.0,156.782,8.59683,1103.43,805.387,26.7715,40.8532
477.896,28.5272,124.621,212.044,3.7717,852.821,700.993,29.1029,53.05
223.757,0.0,117.791,172.958,6.1732,1037.65,785.203,30.7009,26.7118
328.393,0.0,101.128,203.645,11.5715,757.119,727.079,31.1513,33.8662
258.389,0.0,0.0,168.391,0.0,1233.28,759.197,29.7312,20.6179
365.471,178.56,0.0,194.552,6.28027,910.12,793.036,26.9426,64.2465
315.19,0.0,0.0,204.68,0.0,1077.54,780.976,13.7179,19.9061
425.001,20.9931,79.2414,139.126,11.2365,1038.39,628.892,61.1167,57.6336
97.2799,159.776,0.0,188.437,0.0,828.212,943.117,84.8372,26.7138
525.922,0.0,0.0,134.662,22.6605,829.366,993.999,6.74691,47.3527
220.138,0.0,0.0,187.706,0.0,1039.31,748.115,28.5651,18.9911
236.109,0.0,0.0,187.527,0.0,1096.58,749.828,27.0504,15.3753
247.243,0.0,98.6598,177.053,14.6102,1046.4,886.563,11.8951,47.2782
289.764,0.0,90.8059,200.54,11.3875,1073.39,835.027,26.4503,36.8672
257.845,0.0,0.0,179.162,0.0,1169.15,792.8,6.84609,13.7925
395.986,0.0,0.0,193.27,0.0,1003.42,812.006,0.955848,6.36911
283.654,14.865,150.37,177.387,5.0318,886.489,745.698,2.66961,13.0501
127.36,184.668,0.0,184.086,0.0,991.379,793.557,27.4585,18.6173
301.647,98.8436,22.7925,147.276,11.1332,985.733,748.026,31.0467,65.4175
522.449,0.0,0.0,155.347,33.3122,877.043,892.834,29.3356,58.7159
252.251,101.517,79.2504,203.759,6.48231,928.901,740.549,28.7799,41.1844
141.074,208.348,0.0,191.358,0.0,979.444,875.32,3.06484,6.2747
246.968,98.6894,69.9291,174.675,7.28236,946.682,713.753,27.1299,37.2203
249.842,124.553,0.0,199.829,0.0,1050.24,659.985,281.177,53.0612
266.999,0.0,84.9527,212.533,4.65931,914.56,857.442,12.2078,23.5988
159.824,0.0,164.84,194.629,4.50436,1215.07,812.498,2.99212,11.2925
267.474,0.0,98.8617,193.76,9.03265,866.762,756.201,29.4538,30.7773
172.083,43.4918,129.356,165.536,10.4703,1014.85,824.147,2.72389,6.97579
314.374,220.812,0.0,150.724,14.4439,728.994,939.977,100.28,72.4086
253.24,144.479,0.0,211.394,0.0,896.868,691.898,79.0126,44.9635
188.482,253.209,0.0,167.12,14.0667,860.616,835.624,26.1412,34.8473
181.402,173.245,140.291,213.663,8.12652,831.414,705.883,25.9802,31.2259
386.411,176.582,0.0,179.613,9.60298,952.486,826.836,89.8466,59.2766
232.224,0.0,95.8465,180.384,7.3885,987.249,942.682,88.7337,44.1852
171.82,196.367,148.498,188.412,10.3352,752.463,699.418,25.445,30.5848
293.756,124.087,0.0,186.393,6.3401,856.284,775.112,26.3211,41.8018
500.902,0.0,0.0,211.422,0.0,1166.28,549.633,0.996328,11.3462
99.66,169.816,0.0,174.17,0.0,989.665,882.972,26.6311,14.9715
274.013,0.0,0.0,181.343,0.0,993.396,884.541,167.385,32.5136
305.261,0.0,0.0,198.621,0.0,871.999,682.733,14.0206,26.0409
356.003,103.665,26.7744,156.034,10.9409,1033.49,870.199,52.4765,61.3995
176.077,165.742,0.0,231.828,0.0,860.565,694.425,310.417,48.5658
219.078,0.0,105.836,160.68,5.52928,1097.26,796.09,29.3499,25.4244
320.668,0.0,0.0,167.012,0.0,913.218,729.9,314.607,38.1253
459.843,26.5807,89.5506,158.961,11.6693,1016.23,705.712,57.0398,58.832
136.483,208.465,0.0,169.585,0.0,917.191,677.705,7.17357,7.63118
227.793,0.0,117.533,188.798,6.67509,1016.99,868.36,2.6325,15.1684
555.575,0.0,0.0,161.563,28.7689,885.608,829.585,57.3373,58.6609
235.847,0.0,101.974,204.464,5.79288,1151.27,679.439,30.2726,35.3099
166.163,250.955,0.0,173.776,0.0,964.386,693.689,7.82501,13.8963
271.048,0.0,0.0,195.208,0.0,1056.29,809.742,6.94563,11.6987
124.773,237.519,0.0,149.117,10.5681,837.233,756.492,24.7994,37.7414
162.279,231.164,0.0,207.597,0.0,1001,768.294,25.9397,34.1875
243.441,0.0,0.0,223.641,0.0,886.272,888.607,96.5055,23.6487
316.701,190.059,0.0,169.426,13.8607,735.012,817.986,57.1132,58.2452
236.142,0.0,0.0,214.827,0.0,1019.71,768.959,90.8826,24.9604
197.769,133.165,0.0,180.64,0.0,1055.92,744.989,26.3423,22.1748
351.345,183.859,0.0,173.904,12.1031,990.027,754.528,6.57444,54.7328
161.521,101.131,133.222,166.861,4.8493,776.366,899.578,33.3007,30.0989
273.208,183.393,0.0,174.131,9.65987,895.454,814.264,80.9562,65.9731
212.814,12.2217,148.817,199.176,1.74204,912.893,842.545,6.80638,15.2492
332.489,0.0,0.0,219.139,0.0,1085.64,826.874,7.6227,23.3585
270.251,0.0,0.0,187.407,0.0,827.85,918.279,27.868,26.5936
297.479,110.151,79.1584,184.974,10.1796,866.937,684.644,36.4931,30.4802
233.69,0.0,98.344,121.475,10.6834,1119.92,971.18,115.149,60.0138
259.522,95.1248,72.5283,195.549,6.51102,996.035,801.818,28.2789,34.7926
317.179,0.0,0.0,221.383,0.0,1024.05,761.216,202.825,28.4935